{
  "resourceType": "Bundle",
  "type": "transaction",
  "entry": [
    {
      "fullUrl": "1",
      "resource": {
        "resourceType": "Location",
        "name": "Universitätsklinikum Erlangen",
        "address": {
          "use": "work",
          "line": ["Maximiliansplatz 2"],
          "city": "Erlangen",
          "state": "Bayern",
          "postalCode": "91054",
          "country": "DE"
        }
      },
      "request": {
        "method": "POST",
        "url": "Location",
        "ifNoneExist": "name=Universit%C3%A4tsklinikum%20Erlangen"
      }
    },
    {
      "fullUrl": "2",
      "resource": {
        "resourceType": "Location",
        "name": "Universitätsklinikum Carl Gustav Carus Dresden",
        "address": {
          "use": "work",
          "line": ["Fetscherstraße 74"],
          "city": "Dresden",
          "state": "Sachsen",
          "postalCode": "01307",
          "country": "DE"
        }
      },
      "request": {
        "method": "POST",
        "url": "Location",
        "ifNoneExist": "name=Universit%C3%A4tsklinikum%20Carl%20Gustav%20Carus%20Dresden"
      }
    },
    {
      "fullUrl": "3",
      "resource": {
        "resourceType": "ResearchStudy",
        "language": "de-DE",
        "contained": [
          {
            "resourceType": "Group",
            "id": "1",
            "type": "person",
            "actual": false,
            "characteristic": [
              {
                "code": {
                  "coding": [
                    {
                      "system": "http://terminology.hl7.org/CodeSystem/usage-context-type",
                      "code": "age"
                    }
                  ],
                  "text": "Age Range"
                },
                "valueRange": {
                  "low": {
                    "value": 18,
                    "system": "http://unitsofmeasure.org",
                    "code": "a"
                  },
                  "high": {
                    "value": 99,
                    "system": "http://unitsofmeasure.org",
                    "code": "a"
                  }
                },
                "exclude": false
              }
            ]
          }
        ],
        "identifier": [
          {
            "use": "secondary",
            "system": "https://fhir.uk-erlangen.de/NamingSystem/ResearchStudyId",
            "value": "xmdpldbelavr"
          },
          {
            "use": "official",
            "system": "http://clinicaltrials.gov",
            "value": "NCT03521531"
          }
        ],
        "extension": [
          {
            "url": "https://fhir.miracum.org/uc1/StructureDefinition/studyAcronym",
            "valueString": "PROSa"
          }
        ],
        "title": "Krankheitslast und Versorgungssituation bei Sarkomen: Eine nationale Studie zu Einflussfaktoren patientenberichteter Krankheitsfolgen bei Menschen mit Sarkomerkrankungen - PROSa - A",
        "_title": {
          "extension": [
            {
              "extension": [
                {
                  "url": "lang",
                  "valueCode": "en"
                },
                {
                  "url": "content",
                  "valueString": "Burden and Medical Care of Sarcoma in Germany: Nationwide Cohort Study Focusing on Modifiable Determinants of Patient-Reported Outcome Measures in Sarcoma Patients"
                }
              ],
              "url": "http://hl7.org/fhir/StructureDefinition/translation"
            }
          ]
        },
        "status": "active",
        "condition": [
          {
            "coding": [
              {
                "system": "http://fhir.de/CodeSystem/dimdi/icd-10-gm",
                "code": "C40 - C41"
              }
            ],
            "text": "Bösartige Neubildungen des Knochens und des Gelenkknorpels"
          },
          {
            "coding": [
              {
                "system": "http://fhir.de/CodeSystem/dimdi/icd-10-gm",
                "code": "C49"
              }
            ],
            "text": "Bösartige Neubildung sonstigen Bindegewebes und anderer Weichteilgewebe"
          },
          {
            "coding": [
              {
                "system": "http://fhir.de/CodeSystem/dimdi/icd-10-gm",
                "code": "C48"
              }
            ],
            "text": "Bösartige Neubildung des Retroperitoneums und des Peritoneums"
          },
          {
            "coding": [
              {
                "system": "http://fhir.de/CodeSystem/dimdi/icd-10-gm",
                "code": "C22"
              }
            ],
            "text": "Bösartige Neubildung der Leber und der intrahepatischen Gallengänge"
          },
          {
            "coding": [
              {
                "system": "http://fhir.de/CodeSystem/dimdi/icd-10-gm",
                "code": "C46"
              }
            ],
            "text": "Kaposi-Sarkom [Sarcoma idiopathicum multiplex haemorrhagicum]"
          }
        ],
        "relatedArtifact": [
          {
            "type": "documentation",
            "display": "clinicaltrials.gov (NCT)",
            "url": "https://clinicaltrials.gov/ct2/show/NCT03521531"
          }
        ],
        "keyword": [
          {
            "coding": [
              {
                "system": "https://fhir.uk-erlangen.de/studies/CodeSystem/studyCategory",
                "code": "entsarkom"
              }
            ],
            "text": "Sarkome (Knochen- und Weichteilkrebs)"
          },
          {
            "coding": [
              {
                "system": "https://fhir.uk-erlangen.de/studies/CodeSystem/studyCategory",
                "code": "sarkknoch"
              }
            ],
            "text": "Tumore des Knochens (Knochensarkome)"
          },
          {
            "coding": [
              {
                "system": "https://fhir.uk-erlangen.de/studies/CodeSystem/studyCategory",
                "code": "sarkweich"
              }
            ],
            "text": "Weichteiltumor (Weichteilsarkome)"
          },
          {
            "coding": [
              {
                "system": "https://fhir.uk-erlangen.de/studies/CodeSystem/studyCategory",
                "code": "sarksonst"
              }
            ],
            "text": "Sonstige Sarkome"
          }
        ],
        "description": "Hintergrund: Sarkome sind mit ca. 5.000 neu betroffenen Erwachsenen in Deutschland pro Jahr eine sehr seltene Erkrankung. Unterschieden werden zwei Gruppen, die häufigeren Weichteilsarkome und die Knochensarkome. Aufgrund ihrer Seltenheit, Verschiedenheit und der komplexen Therapien, die zur Behandlung nötig sind, stellen Sarkome die klinische Behandlungspraxis und die wissenschaftliche Forschung vor anhaltende Herausforderungen.  Studienziel: Hauptziele der Studie sind, die Behandlungssituation von Sarkompatienten zu erfassen und deren Einfluss auf die Lebensqualität der Patienten zu bestimmen. Es sollen beeinträchtigte Lebensqualitätsbereiche und die damit zusammenhängenden Faktoren identifiziert werden.  Nutzen der Ergebnisse: Wenn bekannt ist, in welchen Bereichen die Lebensqualität beeinträchtigt ist und welche klinischen Einflussgrößen damit in Zusammenhang stehen, kann eine bedarfsgerechte und zielgruppenspezifische Behandlung von Sarkompatienten besser gewährleistet werden.",
        "enrollment": [
          {
            "reference": "#1"
          }
        ],
        "site": [
          {
            "reference": "Location/1"
          }
        ]
      },
      "request": {
        "method": "PUT",
        "url": "ResearchStudy?identifier=https%3A%2F%2Ffhir.uk-erlangen.de%2FNamingSystem%2FResearchStudyId|xmdpldbelavr"
      }
    },
    {
      "fullUrl": "4",
      "resource": {
        "resourceType": "ResearchStudy",
        "language": "de-DE",
        "contained": [
          {
            "resourceType": "Group",
            "id": "1",
            "type": "person",
            "actual": false,
            "characteristic": [
              {
                "code": {
                  "coding": [
                    {
                      "system": "http://terminology.hl7.org/CodeSystem/usage-context-type",
                      "code": "age"
                    }
                  ],
                  "text": "Age Range"
                },
                "valueRange": {
                  "low": {
                    "value": 18,
                    "system": "http://unitsofmeasure.org",
                    "code": "a"
                  }
                },
                "exclude": false
              }
            ]
          }
        ],
        "identifier": [
          {
            "use": "secondary",
            "system": "https://fhir.uk-erlangen.de/NamingSystem/ResearchStudyId",
            "value": "ydbvqxoblkjg"
          }
        ],
        "extension": [
          {
            "url": "https://fhir.miracum.org/uc1/StructureDefinition/studyAcronym",
            "valueString": "GAST-05"
          }
        ],
        "title": "Prospektiv randomisierte, multizentrische Phase II-Studie: Therapie des lokal fortgeschrittenen Rektumkarzinoms (UICC II und III) im oberen Rektumdrittel (12-16 cm ab Anokutanlinie) mittels qualitätsgesicherter totaler (TME) versus partieller mesorektaler Exzision (PME) gefolgt von adjuvanter Chemotherapie (5-FU + Folinsäure + Oxaliplatin)",
        "status": "temporarily-closed-to-accrual",
        "condition": [
          {
            "coding": [
              {
                "system": "http://fhir.de/CodeSystem/dimdi/icd-10-gm",
                "code": "C20"
              }
            ],
            "text": "Bösartige Neubildung des Rektums"
          }
        ],
        "contact": [
          {
            "name": "Studienzentrale Chirurgie",
            "telecom": [
              {
                "system": "email",
                "value": "chir@example.de",
                "use": "work"
              },
              {
                "system": "phone",
                "value": "00000/00-00000",
                "use": "work"
              }
            ]
          }
        ],
        "keyword": [
          {
            "coding": [
              {
                "system": "https://fhir.uk-erlangen.de/studies/CodeSystem/studyCategory",
                "code": "entgastro"
              }
            ],
            "text": "Krebs des Verdauungstraktes (z.B. Magenkrebs, Darmkrebs)"
          },
          {
            "coding": [
              {
                "system": "https://fhir.uk-erlangen.de/studies/CodeSystem/studyCategory",
                "code": "gikolorektal"
              }
            ],
            "text": "Tumor des Dickdarms / Mastdarms (Kolorektales Karzinom)"
          }
        ],
        "enrollment": [
          {
            "reference": "#1"
          }
        ],
        "site": [
          {
            "reference": "Location/2"
          }
        ]
      },
      "request": {
        "method": "PUT",
        "url": "ResearchStudy?identifier=https%3A%2F%2Ffhir.uk-erlangen.de%2FNamingSystem%2FResearchStudyId|ydbvqxoblkjg"
      }
    },
    {
      "fullUrl": "5",
      "resource": {
        "resourceType": "ResearchStudy",
        "meta": {
          "tag": [
            {
              "system": "https://fhir.miracum.org/uc1/CodeSystem/registryStudyRole",
              "code": "master",
              "display": "Multi-site master study record"
            }
          ]
        },
        "language": "de-DE",
        "contained": [
          {
            "resourceType": "Group",
            "id": "1",
            "type": "person",
            "actual": false,
            "characteristic": [
              {
                "code": {
                  "coding": [
                    {
                      "system": "http://terminology.hl7.org/CodeSystem/usage-context-type",
                      "code": "age"
                    }
                  ],
                  "text": "Age Range"
                },
                "valueRange": {
                  "low": {
                    "value": 18,
                    "system": "http://unitsofmeasure.org",
                    "code": "a"
                  }
                },
                "exclude": false
              }
            ]
          }
        ],
        "identifier": [
          {
            "use": "secondary",
            "system": "https://fhir.uk-erlangen.de/NamingSystem/ResearchStudyId",
            "value": "nzpxlpnwlarg"
          }
        ],
        "extension": [
          {
            "url": "https://fhir.miracum.org/uc1/StructureDefinition/studyAcronym",
            "valueString": "SYNCHRONOUS"
          }
        ],
        "title": "Resection of the primary tumor versus no resection prior to systemic therapy in patients with colon cancer and synchronous unresectable metastases (UICC stage IV) - A randomized controlled multicenter trial (SYNCHRONOUS-Trial)",
        "status": "active",
        "condition": [
          {
            "coding": [
              {
                "system": "http://fhir.de/CodeSystem/dimdi/icd-10-gm",
                "code": "C18"
              }
            ],
            "text": "Bösartige Neubildung des Kolons"
          }
        ],
        "keyword": [
          {
            "coding": [
              {
                "system": "https://fhir.uk-erlangen.de/studies/CodeSystem/studyCategory",
                "code": "entgastro"
              }
            ],
            "text": "Krebs des Verdauungstraktes (z.B. Magenkrebs, Darmkrebs)"
          },
          {
            "coding": [
              {
                "system": "https://fhir.uk-erlangen.de/studies/CodeSystem/studyCategory",
                "code": "gikolorektal"
              }
            ],
            "text": "Tumor des Dickdarms / Mastdarms (Kolorektales Karzinom)"
          }
        ],
        "enrollment": [
          {
            "reference": "#1"
          }
        ],
        "site": [
          {
            "reference": "Location/1",
            "extension": [
              {
                "url": "https://fhir.miracum.org/uc1/StructureDefinition/siteRecruitmentStatus",
                "valueCodeableConcept": {
                  "coding": [
                    {
                      "system": "http://hl7.org/fhir/research-study-status",
                      "code": "active"
                    }
                  ]
                }
              },
              {
                "url": "https://fhir.miracum.org/uc1/StructureDefinition/siteContact",
                "valueContactDetail": {
                  "name": "Studienzentrale Chirurgie",
                  "telecom": [
                    {
                      "system": "email",
                      "value": "erlangen@example.de",
                      "use": "work"
                    },
                    {
                      "system": "phone",
                      "value": "00000/33-333333",
                      "use": "work"
                    }
                  ]
                }
              }
            ]
          },
          {
            "reference": "Location/2",
            "extension": [
              {
                "url": "https://fhir.miracum.org/uc1/StructureDefinition/siteRecruitmentStatus",
                "valueCodeableConcept": {
                  "coding": [
                    {
                      "system": "http://hl7.org/fhir/research-study-status",
                      "code": "active"
                    }
                  ]
                }
              },
              {
                "url": "https://fhir.miracum.org/uc1/StructureDefinition/siteContact",
                "valueContactDetail": {
                  "name": "Abteilung Chirurgische Forschung",
                  "telecom": [
                    {
                      "system": "email",
                      "value": "greifswald@example.de",
                      "use": "work"
                    },
                    {
                      "system": "phone",
                      "value": "+49(0)222 222 222",
                      "use": "work"
                    }
                  ]
                }
              }
            ]
          }
        ]
      },
      "request": {
        "method": "PUT",
        "url": "ResearchStudy?identifier=https%3A%2F%2Ffhir.uk-erlangen.de%2FNamingSystem%2FResearchStudyId|nzpxlpnwlarg"
      }
    }
  ]
}
